Folder: AI_4_CATALYSIS/data/data_modification_for_Ea

Note: README.md
# AI_4_CATALYSIS
This is a project for paper writting.

For source code checking, please switch tomaster branch!

File: Test_Ea_0611_version_1_cleansed.csv
Molar ratio (Zn:Cu),Promoter 1,Promoter 1 ratio (Promoter 1:Cu),Promoter 2,Promoter 2 ratio (Promoter 2:Cu),Catalyst surface area (m2/g) (LN scale),Type of sysnthesis procedure,Calcination temperature (°C),Calcination time (h),Temperature (°C),Pressure (bar),H2/CO2 ratio (-),GHSV (mL/g.h) (LN scale),Methanol based Ea (kJ/mol),Unnamed: 14,Unnamed: 15,Unnamed: 16,DOI,Name,Year
2.0,Null,,Null,,3.10459,Co-precipitation,350.0,4.0,200.0,30,3.0,10.0858,21.2562,,,,10.1016/j.apcatb.2022.122233,Boosting CO2 hydrogenation to methanol by adding trace amount of Au into Cu/ZnO catalysts,2023
2.0,Null,,Null,,3.10459,Co-precipitation,350.0,4.0,225.0,30,3.0,10.0858,21.2562,,,,10.1016/j.apcatb.2022.122233,,2023
2.0,Null,,Null,,3.10459,Co-precipitation,350.0,4.0,250.0,30,3.0,10.0858,21.2562,,,,10.1016/j.apcatb.2022.122233,,2023
2.0,Au,0.001,Null,,3.46261,Co-precipitation,350.0,4.0,200.0,30,3.0,10.0858,24.2514,,,,10.1016/j.apcatb.2022.122233,,2023
2.0,Au,0.001,Null,,3.46261,Co-precipitation,350.0,4.0,225.0,30,3.0,10.0858,24.2514,,,,10.1016/j.apcatb.2022.122233,,2023
2.0,Au,0.001,Null,,3.46261,Co-precipitation,350.0,4.0,250.0,30,3.0,10.0858,24.2514,,,,10.1016/j.apcatb.2022.122233,,2023
2.0,Au,0.005,Null,,3.46574,Co-precipitation,350.0,4.0,200.0,30,3.0,10.0858,23.0048,,,,10.1016/j.apcatb.2022.122233,,2023
2.0,Au,0.005,Null,,3.46574,Co-precipitation,350.0,4.0,225.0,30,3.0,10.0858,23.0048,,,,10.1016/j.apcatb.2022.122233,,2023
2.0,Au,0.005,Null,,3.46574,Co-precipitation,350.0,4.0,250.0,30,3.0,10.0858,23.0048,,,,10.1016/j.apcatb.2022.122233,,2023
2.0,Au,0.02,Null,,3.24259,Co-precipitation,350.0,4.0,200.0,30,3.0,10.0858,28.4034,,,,10.1016/j.apcatb.2022.122233,,2023
2.0,Au,0.02,Null,,3.24259,Co-precipitation,350.0,4.0,225.0,30,3.0,10.0858,28.4034,,,,10.1016/j.apcatb.2022.122233,,2023
2.0,Au,0.02,Null,,3.24259,Co-precipitation,350.0,4.0,250.0,30,3.0,10.0858,28.4034,,,,10.1016/j.apcatb.2022.122233,,2023
2.0,Au,0.05,Null,,3.22287,Co-precipitation,350.0,4.0,200.0,30,3.0,10.0858,38.9296,,,,10.1016/j.apcatb.2022.122233,,2023
2.0,Au,0.05,Null,,3.22287,Co-precipitation,350.0,4.0,225.0,30,3.0,10.0858,38.9296,,,,10.1016/j.apcatb.2022.122233,,2023
2.0,Au,0.05,Null,,3.22287,Co-precipitation,350.0,4.0,250.0,30,3.0,10.0858,38.9296,,,,10.1016/j.apcatb.2022.122233,,2023
0.7319,Null,,Zr,0.6616,5.09375,Co-precipitation,350.0,2.0,200.0,20,3.0,9.65503,30.5514,,,,10.1016/j.cej.2017.02.010,CO2 hydrogenation to methanol over CuO–ZnO–ZrO2–SiO2 catalysts: Effects of SiO2 contents,2017
0.7319,Null,,Zr,0.6616,5.09375,Co-precipitation,350.0,2.0,220.0,20,3.0,9.65503,30.5514,,,,10.1016/j.cej.2017.02.010,,2017
0.7319,Null,,Zr,0.6616,5.09375,Co-precipitation,350.0,2.0,240.0,20,3.0,9.65503,30.5514,,,,10.1016/j.cej.2017.02.010,,2017
0.7,Si,0.0001764,Zr,0.6545,5.16479,Co-precipitation,350.0,2.0,200.0,20,3.0,9.65503,21.6111,,,,10.1016/j.cej.2017.02.010,,2017
0.7,Si,0.0001764,Zr,0.6545,5.16479,Co-precipitation,350.0,2.0,220.0,20,3.0,9.65503,21.6111,,,,10.1016/j.cej.2017.02.010,,2017
0.7,Si,0.0001764,Zr,0.6545,5.16479,Co-precipitation,350.0,2.0,240.0,20,3.0,9.65503,21.6111,,,,10.1016/j.cej.2017.02.010,,2017
0.7384,Si,0.0004577,Zr,0.6528,5.36598,Co-precipitation,350.0,2.0,200.0,20,3.0,9.65503,27.5408,,,,10.1016/j.cej.2017.02.010,,2017
0.7384,Si,0.0004577,Zr,0.6528,5.36598,Co-precipitation,350.0,2.0,220.0,20,3.0,9.65503,27.5408,,,,10.1016/j.cej.2017.02.010,,2017
0.7384,Si,0.0004577,Zr,0.6528,5.36598,Co-precipitation,350.0,2.0,240.0,20,3.0,9.65503,27.5408,,,,10.1016/j.cej.2017.02.010,,2017
0.6948,Si,0.00065172,Zr,0.6782,5.23111,Co-precipitation,350.0,2.0,200.0,20,3.0,9.65503,33.0272,,,,10.1016/j.cej.2017.02.010,,2017
0.6948,Si,0.00065172,Zr,0.6782,5.23111,Co-precipitation,350.0,2.0,220.0,20,3.0,9.65503,33.0272,,,,10.1016/j.cej.2017.02.010,,2017
0.6948,Si,0.00065172,Zr,0.6782,5.23111,Co-precipitation,350.0,2.0,240.0,20,3.0,9.65503,33.0272,,,,10.1016/j.cej.2017.02.010,,2017
0.681,Si,0.001128,Zr,0.6473,4.97673,Co-precipitation,350.0,2.0,200.0,20,3.0,9.65503,29.1462,,,,10.1016/j.cej.2017.02.010,,2017
0.681,Si,0.001128,Zr,0.6473,4.97673,Co-precipitation,350.0,2.0,220.0,20,3.0,9.65503,29.1462,,,,10.1016/j.cej.2017.02.010,,2017
0.681,Si,0.001128,Zr,0.6473,4.97673,Co-precipitation,350.0,2.0,240.0,20,3.0,9.65503,29.1462,,,,10.1016/j.cej.2017.02.010,,2017
0.7069,Si,0.0021187,Zr,0.6416,4.80402,Co-precipitation,350.0,2.0,200.0,20,3.0,9.65503,29.9837,,,,10.1016/j.cej.2017.02.010,,2017
0.7069,Si,0.0021187,Zr,0.6416,4.80402,Co-precipitation,350.0,2.0,220.0,20,3.0,9.65503,29.9837,,,,10.1016/j.cej.2017.02.010,,2017
0.7069,Si,0.0021187,Zr,0.6416,4.80402,Co-precipitation,350.0,2.0,240.0,20,3.0,9.65503,29.9837,,,,10.1016/j.cej.2017.02.010,,2017
0.11,Null,,Null,,1.93152,Decomposition-precipitation,400.0,3.0,220.0,30,3.0,9.39266,14.6671,,,,10.1039/d1cy01836a,Dependence of copper particle size and interface on methanol and CO formation in CO2 hydrogenation over Cu@ZnO catalysts,2022
0.11,Null,,Null,,1.93152,Decomposition-precipitation,400.0,3.0,240.0,30,3.0,9.39266,14.6671,,,,10.1039/d1cy01836a,,2022
0.11,Null,,Null,,1.93152,Decomposition-precipitation,400.0,3.0,260.0,30,3.0,9.39266,14.6671,,,,10.1039/d1cy01836a,,2022
0.56,Null,,Null,,2.82731,Decomposition-precipitation,400.0,3.0,220.0,30,3.0,9.39266,25.1226,,,,10.1039/d1cy01836a,,2022
0.56,Null,,Null,,2.82731,Decomposition-precipitation,400.0,3.0,240.0,30,3.0,9.39266,26.0048,,,,10.1039/d1cy01836a,,2022
0.56,Null,,Null,,2.82731,Decomposition-precipitation,400.0,3.0,260.0,30,3.0,9.39266,26.0048,,,,10.1039/d1cy01836a,,2022
1.11,Null,,Null,,3.14415,Decomposition-precipitation,400.0,3.0,220.0,30,3.0,9.39266,41.7121,,,,10.1039/d1cy01836a,,2022
1.11,Null,,Null,,3.14415,Decomposition-precipitation,400.0,3.0,240.0,30,3.0,9.39266,35.5275,,,,10.1039/d1cy01836a,,2022
1.11,Null,,Null,,3.14415,Decomposition-precipitation,400.0,3.0,260.0,30,3.0,9.39266,35.5275,,,,10.1039/d1cy01836a,,2022
0.04,Null,,Al,0.6132,3.62966,Co-precipitation,400.0,3.0,190.0,30,3.0,9.21034,26.4041,,,,10.1039/d2nj05903g,Design of Cu/ZnO/Al2O3 catalysts with a rich Cu–ZnO interface for enhanced CO2 hydrogenation to methanol using zinc-malachite as the precursor,2023
0.04,Null,,Al,0.6132,3.62966,Co-precipitation,400.0,3.0,210.0,30,3.0,9.21034,26.4041,,,,10.1039/d2nj05903g,,2023
0.04,Null,,Al,0.6132,3.62966,Co-precipitation,400.0,3.0,230.0,30,3.0,9.21034,26.4041,,,,10.1039/d2nj05903g,,2023
0.4133,Null,,Al,0.4732,4.33205,Co-precipitation,400.0,3.0,190.0,30,3.0,9.21034,25.5797,,,,10.1039/d2nj05903g,,2023
0.4133,Null,,Al,0.4732,4.33205,Co-precipitation,400.0,3.0,210.0,30,3.0,9.21034,25.5797,,,,10.1039/d2nj05903g,,2023
0.4133,Null,,Al,0.4732,4.33205,Co-precipitation,400.0,3.0,230.0,30,3.0,9.21034,25.5797,,,,10.1039/d2nj05903g,,2023
0.4233,Null,,Al,0.52,4.06732,Co-precipitation,400.0,3.0,190.0,30,3.0,9.21034,25.5797,,,,10.1039/d2nj05903g,,2023
0.4233,Null,,Al,0.52,4.06732,Co-precipitation,400.0,3.0,210.0,30,3.0,9.21034,25.5797,,,,10.1039/d2nj05903g,,2023
0.4233,Null,,Al,0.52,4.06732,Co-precipitation,400.0,3.0,230.0,30,3.0,9.21034,25.5797,,,,10.1039/d2nj05903g,,2023
0.3124,Mg,0.4731,Al,0.748,5.2575,Co-precipitation,300.0,2.0,200.0,50,3.0,9.65503,13.8278,,,,10.1016/j.jcat.2022.01.035,Effect of surface basicity over the supported Cu-ZnO catalysts on hydrogenation of CO2 to methanol,2022
[...]
2.44333,Pd,0.0464126,Null,,3.20275,Sequential-precipitation,350.0,,180.0,60,3.0,9.60238,41.2821,,,,10.1006/jcat.2002.3677,,2002
2.44333,Pd,0.0464126,Null,,3.20275,Sequential-precipitation,350.0,,200.0,60,3.0,9.60238,41.2821,,,,10.1006/jcat.2002.3677,,2002
2.44333,Pd,0.0464126,Null,,3.20275,Sequential-precipitation,350.0,,220.0,60,3.0,9.60238,41.2821,,,,10.1006/jcat.2002.3677,,2002
2.44333,Pd,0.0464126,Null,,3.20275,Sequential-precipitation,350.0,,240.0,60,3.0,9.60238,41.2821,,,,10.1006/jcat.2002.3677,,2002
23.456,Null,,Null,,3.4012,Co-precipitation,350.0,4.0,160.0,7,9.0,7.78322,34.4974,,,,10.1016/j.cattod.2012.07.029,,2012
23.456,Null,,Null,,3.4012,Co-precipitation,350.0,4.0,180.0,7,9.0,7.78322,34.4974,,,,10.1016/j.cattod.2012.07.029,,2012
23.456,Null,,Null,,3.4012,Co-precipitation,350.0,4.0,200.0,7,9.0,7.78322,34.4974,,,,10.1016/j.cattod.2012.07.029,,2012
23.456,Null,,Null,,3.4012,Co-precipitation,350.0,4.0,225.0,7,9.0,7.78322,34.4974,,,,10.1016/j.cattod.2012.07.029,,2012
11.2393,Null,,Null,,3.3673,Co-precipitation,350.0,4.0,160.0,7,9.0,7.78322,35.0599,,,,10.1016/j.cattod.2012.07.029,,2012
11.2393,Null,,Null,,3.3673,Co-precipitation,350.0,4.0,180.0,7,9.0,7.78322,35.0599,,,,10.1016/j.cattod.2012.07.029,,2012
11.2393,Null,,Null,,3.3673,Co-precipitation,350.0,4.0,200.0,7,9.0,7.78322,35.0599,,,,10.1016/j.cattod.2012.07.029,,2012
11.2393,Null,,Null,,3.3673,Co-precipitation,350.0,4.0,225.0,7,9.0,7.78322,35.0599,,,,10.1016/j.cattod.2012.07.029,,2012
2.93199,Null,,Null,,3.3322,Co-precipitation,350.0,4.0,140.0,7,9.0,7.78322,31.5287,,,,10.1016/j.cattod.2012.07.029,,2012
2.93199,Null,,Null,,3.3322,Co-precipitation,350.0,4.0,160.0,7,9.0,7.78322,31.5287,,,,10.1016/j.cattod.2012.07.029,,2012
2.93199,Null,,Null,,3.3322,Co-precipitation,350.0,4.0,180.0,7,9.0,7.78322,31.5287,,,,10.1016/j.cattod.2012.07.029,,2012
2.93199,Null,,Null,,3.3322,Co-precipitation,350.0,4.0,200.0,7,9.0,7.78322,31.5287,,,,10.1016/j.cattod.2012.07.029,,2012
2.93199,Null,,Null,,2.89037,Co-precipitation,400.0,4.0,140.0,7,9.0,7.78322,40.3952,,,,10.1016/j.cattod.2012.07.029,,2012
2.93199,Null,,Null,,2.89037,Co-precipitation,400.0,4.0,160.0,7,9.0,7.78322,40.3952,,,,10.1016/j.cattod.2012.07.029,,2012
2.93199,Null,,Null,,2.89037,Co-precipitation,400.0,4.0,180.0,7,9.0,7.78322,40.3952,,,,10.1016/j.cattod.2012.07.029,,2012
2.93199,Null,,Null,,2.89037,Co-precipitation,400.0,4.0,200.0,7,9.0,7.78322,40.3952,,,,10.1016/j.cattod.2012.07.029,,2012
2.93199,Null,,Null,,2.63906,Co-precipitation,450.0,4.0,140.0,7,9.0,7.78322,43.8031,,,,10.1016/j.cattod.2012.07.029,,2012
2.93199,Null,,Null,,2.63906,Co-precipitation,450.0,4.0,160.0,7,9.0,7.78322,43.8031,,,,10.1016/j.cattod.2012.07.029,,2012
2.93199,Null,,Null,,2.63906,Co-precipitation,450.0,4.0,180.0,7,9.0,7.78322,43.8031,,,,10.1016/j.cattod.2012.07.029,,2012
2.93199,Null,,Null,,2.63906,Co-precipitation,450.0,4.0,200.0,7,9.0,7.78322,43.8031,,,,10.1016/j.cattod.2012.07.029,,2012
2.93199,Null,,Null,,2.63906,Co-precipitation,450.0,4.0,225.0,7,9.0,7.78322,43.8031,,,,10.1016/j.cattod.2012.07.029,,2012
2.93199,Null,,Null,,2.30259,Co-precipitation,500.0,4.0,140.0,7,9.0,7.78322,38.3331,,,,10.1016/j.cattod.2012.07.029,,2012
2.93199,Null,,Null,,2.30259,Co-precipitation,500.0,4.0,160.0,7,9.0,7.78322,38.3331,,,,10.1016/j.cattod.2012.07.029,,2012
2.93199,Null,,Null,,2.30259,Co-precipitation,500.0,4.0,180.0,7,9.0,7.78322,38.3331,,,,10.1016/j.cattod.2012.07.029,,2012
2.93199,Null,,Null,,2.30259,Co-precipitation,500.0,4.0,200.0,7,9.0,7.78322,38.3331,,,,10.1016/j.cattod.2012.07.029,,2012
2.93199,Null,,Null,,2.30259,Co-precipitation,500.0,4.0,225.0,7,9.0,7.78322,38.3331,,,,10.1016/j.cattod.2012.07.029,,2012

File: Test_Ea_0611_version_1_conflict_rows.csv
Molar ratio (Zn:Cu),Promoter 1,Promoter 1 ratio (Promoter 1:Cu),Promoter 2,Promoter 2 ratio (Promoter 2:Cu),Catalyst surface area (m2/g) (LN scale),Type of sysnthesis procedure,Calcination temperature (°C),Calcination time (h),Temperature (°C),Pressure (bar),H2/CO2 ratio (-),GHSV (mL/g.h) (LN scale),Methanol based Ea (kJ/mol),Unnamed: 14,Unnamed: 15,Unnamed: 16,DOI,Name,Year
0.4589,Al,1.0712,Zr,0.09168,4.78749,Co-precipitation,400.0,2.0,200.0,30,3.0,8.69951,15.3953,,,,10.1007/s40242-016-6130-6,,2016
0.4589,Al,1.0712,Zr,0.09168,4.78749,Co-precipitation,400.0,2.0,220.0,30,3.0,8.69951,15.3953,,,,10.1007/s40242-016-6130-6,,2016
0.4589,Al,1.0712,Zr,0.09168,4.78749,Co-precipitation,400.0,2.0,240.0,30,3.0,8.69951,15.3953,,,,10.1007/s40242-016-6130-6,,2016
0.4918,Al,0.7656,Zr,0.189,4.82028,Co-precipitation,400.0,2.0,200.0,30,3.0,8.69951,8.48208,,,,10.1007/s40242-016-6130-6,,2016
0.4918,Al,0.7656,Zr,0.189,4.82028,Co-precipitation,400.0,2.0,220.0,30,3.0,8.69951,8.48208,,,,10.1007/s40242-016-6130-6,,2016
0.4918,Al,0.7656,Zr,0.189,4.82028,Co-precipitation,400.0,2.0,240.0,30,3.0,8.69951,8.48208,,,,10.1007/s40242-016-6130-6,,2016
0.5,Al,0.345,Zr,0.15,4.47927,Co-precipitation,500.0,4.0,250.0,30,3.0,8.29405,86.2,,,,10.1016/j.jcou.2022.102240,CO2 hydrogenation to methanol with an innovative Cu/Zn/Al/Zr catalyst: Experimental tests and process modeling,2022
0.958092,Ce,6.34,K,0.11186,4.69135,Co-precipitation,400.0,4.0,200.0,20,3.0,8.38936,25.2222,,,,10.1016/j.cattod.2020.04.052,,2021
0.958092,Ce,6.34,K,0.11186,4.69135,Co-precipitation,400.0,4.0,250.0,20,3.0,8.38936,25.2222,,,,10.1016/j.cattod.2020.04.052,,2021
0.958092,Ce,5.64,K,0.11186,4.69135,Co-precipitation,400.0,4.0,300.0,20,3.0,8.38936,25.2222,,,,10.1016/j.cattod.2020.04.052,,2021
0.48382,Ce,5.64,K,0.05118,4.69135,Co-precipitation,400.0,4.0,200.0,20,3.0,8.38936,16.4085,,,,10.1016/j.cattod.2020.04.052,,2021
0.48382,Ce,4.94,K,0.05118,4.69135,Co-precipitation,400.0,4.0,250.0,20,3.0,8.38936,16.4085,,,,10.1016/j.cattod.2020.04.052,,2021
0.48382,Ce,4.94,K,0.05118,4.69135,Co-precipitation,400.0,4.0,300.0,20,3.0,8.38936,16.4085,,,,10.1016/j.cattod.2020.04.052,,2021
0.5,Al,0.6,Zr,0.05,4.26268,Co-precipitation,500.0,5.0,170.0,50,3.0,8.29405,43.1873,,,,10.1016/j.jcou.2014.12.008,Cu/Zn/Al/Zr catalysts via phase-pure hydrotalcite-like compounds for methanol synthesis from carbon dioxide,2015
0.5,Al,0.6,Zr,0.05,4.26268,Co-precipitation,500.0,5.0,190.0,50,3.0,8.29405,43.1873,,,,10.1016/j.jcou.2014.12.008,,2015
0.5,Al,0.6,Zr,0.05,4.26268,Co-precipitation,500.0,5.0,210.0,50,3.0,8.29405,43.1873,,,,10.1016/j.jcou.2014.12.008,,2015
0.5,Al,0.6,Zr,0.05,4.26268,Co-precipitation,500.0,5.0,230.0,50,3.0,8.29405,43.1873,,,,10.1016/j.jcou.2014.12.008,,2015
0.5,Al,0.6,Zr,0.05,4.26268,Co-precipitation,500.0,5.0,250.0,50,3.0,8.29405,43.1873,,,,10.1016/j.jcou.2014.12.008,,2015
0.484,Al,0.429,Zr,0.0451,4.26268,Co-precipitation,500.0,4.0,230.0,50,3.0,9.39266,17.192,,,,10.1016/j.apcata.2013.09.026,,2013
0.484,Al,0.429,Zr,0.0451,4.26268,Co-precipitation,500.0,4.0,250.0,50,3.0,9.39266,17.192,,,,10.1016/j.apcata.2013.09.026,,2013
0.484,Al,0.429,Zr,0.0451,4.26268,Co-precipitation,500.0,4.0,270.0,50,3.0,9.39266,17.192,,,,10.1016/j.apcata.2013.09.026,,2013
0.5,Al,0.0833,Zr,0.08333,4.26127,Co-precipitation,350.0,4.0,200.0,40,3.0,9.1842,29.8446,,,,10.1007/s10562-007-9182-x,,2007
0.5,Al,0.0833,Zr,0.08333,4.26127,Co-precipitation,350.0,4.0,220.0,40,3.0,9.1842,29.8446,,,,10.1007/s10562-007-9182-x,,2007
0.5,Al,0.0833,Zr,0.08333,4.26127,Co-precipitation,350.0,4.0,240.0,40,3.0,9.1842,29.8446,,,,10.1007/s10562-007-9182-x,,2007