Folder: AI_4_CATALYSIS/data/data_modification

Note: README.md
# AI_4_CATALYSIS
This is a project for paper writting.

For source code checking, please switch tomaster branch!

File: Test_0611.csv
Molar ratio (Zn:Cu),Promoter 1 ,Promoter 1 ratio (Promoter 1:Cu),Promoter 2,Promoter 2 ratio (Promoter 2:Cu),Catalyst surface area (m2/g) (LN scale),Type of sysnthesis procedure,Calcination temperature (°C),Calcination time (h),Temperature (°C),Pressure (bar),H2/CO2 ratio (-),GHSV (mL/g.h) (LN scale),CO selectivity (%),Methanol selectivity (%),STY_CH3OH (g/kg·h) (LN scale),CO2 conversion efficiency (%),,,,DOI,Name,Year
2,Null,,Null,,3.10459,Co-precipitation,350,4,200,30,3,10.0858,39.9504,60.0496,4.68006,2.12687,,,,10.1016/j.apcatb.2022.122233,Boosting CO2 hydrogenation to methanol by adding trace amount of Au into Cu/ZnO catalysts,2023
2,Null,,Null,,3.10459,Co-precipitation,350,4,225,30,3,10.0858,46.8983,53.1017,5.07731,3.50746,,,,10.1016/j.apcatb.2022.122233,,2023
2,Null,,Null,,3.10459,Co-precipitation,350,4,250,30,3,10.0858,65.2605,34.7395,5.18869,6.00746,,,,10.1016/j.apcatb.2022.122233,,2023
2,Null,,Null,,3.10459,Co-precipitation,350,4,275,30,3,10.0858,78.1638,21.8362,5.28475,10.0224,,,,10.1016/j.apcatb.2022.122233,,2023
2,Au,0.001,Null,,3.46261,Co-precipitation,350,4,200,30,3,10.0858,23.0769,76.9231,5.0408,2.31343,,,,10.1016/j.apcatb.2022.122233,,2023
2,Au,0.001,Null,,3.46261,Co-precipitation,350,4,225,30,3,10.0858,34.4913,65.5087,5.45294,4.1791,,,,10.1016/j.apcatb.2022.122233,,2023
2,Au,0.001,Null,,3.46261,Co-precipitation,350,4,250,30,3,10.0858,48.3871,51.6129,5.62393,6.23134,,,,10.1016/j.apcatb.2022.122233,,2023
2,Au,0.001,Null,,3.46261,Co-precipitation,350,4,275,30,3,10.0858,70.2233,29.7767,5.68155,11.6045,,,,10.1016/j.apcatb.2022.122233,,2023
2,Au,0.005,Null,,3.46574,Co-precipitation,350,4,200,30,3,10.0858,18.6104,81.3896,5.19782,2.54325,,,,10.1016/j.apcatb.2022.122233,,2023
2,Au,0.005,Null,,3.46574,Co-precipitation,350,4,225,30,3,10.0858,30.7692,69.2308,5.57532,4.37872,,,,10.1016/j.apcatb.2022.122233,,2023
2,Au,0.005,Null,,3.46574,Co-precipitation,350,4,250,30,3,10.0858,42.1836,57.8164,5.7518,6.30551,,,,10.1016/j.apcatb.2022.122233,,2023
2,Au,0.005,Null,,3.46574,Co-precipitation,350,4,275,30,3,10.0858,69.0722,30.9278,5.80762,9.77035,,,,10.1016/j.apcatb.2022.122233,,2023
2,Au,0.02,Null,,3.24259,Co-precipitation,350,4,200,30,3,10.0858,22.0844,77.9156,4.98621,2.16965,,,,10.1016/j.apcatb.2022.122233,,2023
2,Au,0.02,Null,,3.24259,Co-precipitation,350,4,225,30,3,10.0858,32.2581,67.7419,5.43519,3.91121,,,,10.1016/j.apcatb.2022.122233,,2023
2,Au,0.02,Null,,3.24259,Co-precipitation,350,4,250,30,3,10.0858,43.9206,56.0794,5.67028,5.97653,,,,10.1016/j.apcatb.2022.122233,,2023
2,Au,0.02,Null,,3.24259,Co-precipitation,350,4,275,30,3,10.0858,68.2382,31.7618,5.69268,10.0269,,,,10.1016/j.apcatb.2022.122233,,2023
2,Au,0.05,Null,,3.22287,Co-precipitation,350,4,200,30,3,10.0858,31.7618,68.2382,4.5925,1.65518,,,,10.1016/j.apcatb.2022.122233,,2023
2,Au,0.05,Null,,3.22287,Co-precipitation,350,4,225,30,3,10.0858,41.4392,58.5608,5.23787,3.72311,,,,10.1016/j.apcatb.2022.122233,,2023
2,Au,0.05,Null,,3.22287,Co-precipitation,350,4,250,30,3,10.0858,50.3722,49.6278,5.5275,5.83591,,,,10.1016/j.apcatb.2022.122233,,2023
2,Au,0.05,Null,,3.22287,Co-precipitation,350,4,275,30,3,10.0858,71.7122,28.2878,5.62393,9.41265,,,,10.1016/j.apcatb.2022.122233,,2023
0.4587,Al,2.2568,Zr,0.0413,4.23411,Co-precipitation,500,5,250,50,3.04,8.29405,38.5,61.5,5.39226,25.9,,,,10.1016/j.jcou.2016.01.005,Catalytic performance of spray-dried Cu/ZnO/Al2O3/ZrO2 catalysts for slurry methanol synthesis from CO2 hydrogenation,2016
0.4566,Al,2.8128,Zr,0.0411,4.31749,Co-precipitation,500,5,250,50,3.04,8.29405,39.4,60.6,5.35044,25.2,,,,10.1016/j.jcou.2016.01.005,,2016
0.4525,Al,3.3304,Zr,0.0407,4.35671,Co-precipitation,500,5,250,50,3.04,8.29405,41.3,58.7,5.29882,24.7,,,,10.1016/j.jcou.2016.01.005,,2016
0.4484,Al,4.016,Zr,0.0404,4.40672,Co-precipitation,500,5,250,50,3.04,8.29405,42.3,57.7,5.24069,23.7,,,,10.1016/j.jcou.2016.01.005,,2016
0.4525,Al,4.8868,Zr,0.0407,4.47734,Co-precipitation,500,5,250,50,3.04,8.29405,44.8,55.2,5.13167,22.2,,,,10.1016/j.jcou.2016.01.005,,2016
0.4587,Al,2.2568,Zr,0.0413,4.23411,Co-precipitation,500,5,220,30,3.04,8.29405,38.9,61.1,3.60005,8.5,,,,10.1016/j.jcou.2016.01.005,,2016
0.4566,Al,2.8128,Zr,0.0411,4.31749,Co-precipitation,500,5,220,30,3.04,8.29405,36.5,63.5,3.95891,11.8,,,,10.1016/j.jcou.2016.01.005,,2016
0.4525,Al,3.3304,Zr,0.0407,4.35671,Co-precipitation,500,5,220,30,3.04,8.29405,38.3,61.7,4.07073,13.6,,,,10.1016/j.jcou.2016.01.005,,2016
0.4484,Al,4.016,Zr,0.0404,4.40672,Co-precipitation,500,5,220,30,3.04,8.29405,41.8,58.2,3.93183,12.5,,,,10.1016/j.jcou.2016.01.005,,2016
0.4525,Al,4.8868,Zr,0.0407,4.47734,Co-precipitation,500,5,220,30,3.04,8.29405,46.2,53.8,3.49043,8.6,,,,10.1016/j.jcou.2016.01.005,,2016
0.7319,Zr,0.6616,Null,,5.09375,Co-precipitation,350,2,200,20,3,9.65503,30.043,65.3151,4.67187,2.90644,,,,10.1016/j.cej.2017.02.010,CO2 hydrogenation to methanol over CuO–ZnO–ZrO2–SiO2 catalysts: Effects of SiO2 contents,2017
0.7319,Zr,0.6616,Null,,5.09375,Co-precipitation,350,2,220,20,3,9.65503,52.185,47.7808,5.07568,5.97586,,,,10.1016/j.cej.2017.02.010,,2017
0.7319,Zr,0.6616,Null,,5.09375,Co-precipitation,350,2,240,20,3,9.65503,68.1634,32,5.27087,10.8581,,,,10.1016/j.cej.2017.02.010,,2017
0.7319,Zr,0.6616,Null,,5.09375,Co-precipitation,350,2,260,20,3,9.65503,86.7246,14.4658,4.77139,14.52731,,,,10.1016/j.cej.2017.02.010,,2017
0.7319,Zr,0.6616,Null,,5.09375,Co-precipitation,350,2,280,20,3,9.65503,91.5842,9.20548,4.59071,19.02298,,,,10.1016/j.cej.2017.02.010,,2017
0.7,Si,0.0001764,Zr,0.6545,5.16479,Co-precipitation,350,2,200,20,3,9.65503,25.2556,69.9178,5.00062,3.78665,,,,10.1016/j.cej.2017.02.010,,2017
0.7,Si,0.0001764,Zr,0.6545,5.16479,Co-precipitation,350,2,220,20,3,9.65503,48.7349,50.411,5.2735,6.91083,,,,10.1016/j.cej.2017.02.010,,2017
0.7,Si,0.0001764,Zr,0.6545,5.16479,Co-precipitation,350,2,240,20,3,9.65503,65.2275,34.411,5.42537,11.79304,,,,10.1016/j.cej.2017.02.010,,2017
0.7,Si,0.0001764,Zr,0.6545,5.16479,Co-precipitation,350,2,260,20,3,9.65503,80.587,19.2877,5.18728,16.56247,,,,10.1016/j.cej.2017.02.010,,2017
0.7,Si,0.0001764,Zr,0.6545,5.16479,Co-precipitation,350,2,280,20,3,9.65503,91.5616,9.20548,4.61891,19.57262,,,,10.1016/j.cej.2017.02.010,,2017
0.7384,Si,0.0004577,Zr,0.6528,5.36598,Co-precipitation,350,2,200,20,3,9.65503,29.5098,70.5753,5.11925,4.22707,,,,10.1016/j.cej.2017.02.010,,2017
0.7384,Si,0.0004577,Zr,0.6528,5.36598,Co-precipitation,350,2,220,20,3,9.65503,45.3621,54.5753,5.60341,8.89127,,,,10.1016/j.cej.2017.02.010,,2017
0.7384,Si,0.0004577,Zr,0.6528,5.36598,Co-precipitation,350,2,240,20,3,9.65503,62.8459,37.0411,5.65728,13.82783,,,,10.1016/j.cej.2017.02.010,,2017
0.7384,Si,0.0004577,Zr,0.6528,5.36598,Co-precipitation,350,2,260,20,3,9.65503,76.2618,23.4521,5.4612,17.93799,,,,10.1016/j.cej.2017.02.010,,2017
0.7384,Si,0.0004577,Zr,0.6528,5.36598,Co-precipitation,350,2,280,20,3,9.65503,90.122,10.5205,4.7623,19.793,,,,10.1016/j.cej.2017.02.010,,2017
0.6948,Si,0.00065172,Zr,0.6782,5.23111,Co-precipitation,350,2,200,20,3,9.65503,36.6317,67.0685,4.82029,3.291741,,,,10.1016/j.cej.2017.02.010,,2017
0.6948,Si,0.00065172,Zr,0.6782,5.23111,Co-precipitation,350,2,220,20,3,9.65503,48.5655,50.6301,5.39713,7.79109,,,,10.1016/j.cej.2017.02.010,,2017
0.6948,Si,0.00065172,Zr,0.6782,5.23111,Co-precipitation,350,2,240,20,3,9.65503,68.2497,33.3151,5.46472,12.67207,,,,10.1016/j.cej.2017.02.010,,2017
[...]
11.2393,Null,,Null,,3.3673,Co-precipitation,350,4,160,7,9,7.78322,0.96,99.04,1.06471,0.44,,,,10.1016/j.cattod.2012.07.029,,2012
11.2393,Null,,Null,,3.3673,Co-precipitation,350,4,180,7,9,7.78322,21.23,78.77,1.48614,1.49,,,,10.1016/j.cattod.2012.07.029,,2012
11.2393,Null,,Null,,3.3673,Co-precipitation,350,4,200,7,9,7.78322,42.45,57.55,1.81482,3.07,,,,10.1016/j.cattod.2012.07.029,,2012
11.2393,Null,,Null,,3.3673,Co-precipitation,350,4,225,7,9,7.78322,71.03,28.97,2.04898,7.59,,,,10.1016/j.cattod.2012.07.029,,2012
11.2393,Null,,Null,,3.3673,Co-precipitation,350,4,250,7,9,7.78322,89.39,10.61,1.88251,17.01,,,,10.1016/j.cattod.2012.07.029,,2012
2.93199,Null,,Null,,3.3322,Co-precipitation,350,4,140,7,9,7.78322,0.19,99.81,1.4422,0.71,,,,10.1016/j.cattod.2012.07.029,,2012
2.93199,Null,,Null,,3.3322,Co-precipitation,350,4,160,7,9,7.78322,19.99,80.01,1.89612,2.2,,,,10.1016/j.cattod.2012.07.029,,2012
2.93199,Null,,Null,,3.3322,Co-precipitation,350,4,180,7,9,7.78322,48.17,51.83,2.2628,4.94,,,,10.1016/j.cattod.2012.07.029,,2012
2.93199,Null,,Null,,3.3322,Co-precipitation,350,4,200,7,9,7.78322,73.07,26.93,2.41054,11.15,,,,10.1016/j.cattod.2012.07.029,,2012
2.93199,Null,,Null,,3.3322,Co-precipitation,350,4,225,7,9,7.78322,85.72,14.28,2.00418,18.17,,,,10.1016/j.cattod.2012.07.029,,2012
2.93199,Null,,Null,,3.3322,Co-precipitation,350,4,250,7,9,7.78322,91.84,8.16,1.50851,22.61,,,,10.1016/j.cattod.2012.07.029,,2012
2.93199,Null,,Null,,2.89037,Co-precipitation,400,4,140,7,9,7.78322,0.78,99.22,1.17248,0.71,,,,10.1016/j.cattod.2012.07.029,,2012
2.93199,Null,,Null,,2.89037,Co-precipitation,400,4,160,7,9,7.78322,12.66,87.34,1.69928,1.68,,,,10.1016/j.cattod.2012.07.029,,2012
2.93199,Null,,Null,,2.89037,Co-precipitation,400,4,180,7,9,7.78322,33.47,66.53,2.14827,3.62,,,,10.1016/j.cattod.2012.07.029,,2012
2.93199,Null,,Null,,2.89037,Co-precipitation,400,4,200,7,9,7.78322,60.82,39.18,2.37118,7.95,,,,10.1016/j.cattod.2012.07.029,,2012
2.93199,Null,,Null,,2.89037,Co-precipitation,400,4,225,7,9,7.78322,85.72,14.28,2.23858,18.17,,,,10.1016/j.cattod.2012.07.029,,2012
2.93199,Null,,Null,,2.89037,Co-precipitation,400,4,250,7,9,7.78322,94.7,5.3,1.57898,27.33,,,,10.1016/j.cattod.2012.07.029,,2012
2.93199,Null,,Null,,2.63906,Co-precipitation,450,4,140,7,9,7.78322,0.78,99.22,0.618962,0.35,,,,10.1016/j.cattod.2012.07.029,,2012
2.93199,Null,,Null,,2.63906,Co-precipitation,450,4,160,7,9,7.78322,28.58,71.42,1.24415,1.84,,,,10.1016/j.cattod.2012.07.029,,2012
2.93199,Null,,Null,,2.63906,Co-precipitation,450,4,180,7,9,7.78322,51.84,48.16,1.63705,4.13,,,,10.1016/j.cattod.2012.07.029,,2012
2.93199,Null,,Null,,2.63906,Co-precipitation,450,4,200,7,9,7.78322,78.37,21.63,2.02419,11.23,,,,10.1016/j.cattod.2012.07.029,,2012
2.93199,Null,,Null,,2.63906,Co-precipitation,450,4,225,7,9,7.78322,93.47,6.53,2.15871,21.9,,,,10.1016/j.cattod.2012.07.029,,2012
2.93199,Null,,Null,,2.63906,Co-precipitation,450,4,250,7,9,7.78322,95.92,4.08,1.59939,27.33,,,,10.1016/j.cattod.2012.07.029,,2012
2.93199,Null,,Null,,2.30259,Co-precipitation,500,4,140,7,9,7.78322,0.96,99.04,0.845868,0.8,,,,10.1016/j.cattod.2012.07.029,,2012
2.93199,Null,,Null,,2.30259,Co-precipitation,500,4,160,7,9,7.78322,10.25,89.75,1.32442,1.59,,,,10.1016/j.cattod.2012.07.029,,2012
2.93199,Null,,Null,,2.30259,Co-precipitation,500,4,180,7,9,7.78322,25.72,74.28,1.74222,2.91,,,,10.1016/j.cattod.2012.07.029,,2012
2.93199,Null,,Null,,2.30259,Co-precipitation,500,4,200,7,9,7.78322,53.47,46.53,2.04898,6.01,,,,10.1016/j.cattod.2012.07.029,,2012
2.93199,Null,,Null,,2.30259,Co-precipitation,500,4,225,7,9,7.78322,77.15,22.85,2.29253,11.77,,,,10.1016/j.cattod.2012.07.029,,2012

File: Test_0611_cleansed.csv
Molar ratio (Zn:Cu),Promoter 1,Promoter 1 ratio (Promoter 1:Cu),Promoter 2,Promoter 2 ratio (Promoter 2:Cu),Catalyst surface area (m2/g) (LN scale),Type of sysnthesis procedure,Calcination temperature (°C),Calcination time (h),Temperature (°C),Pressure (bar),H2/CO2 ratio (-),GHSV (mL/g.h) (LN scale),CO selectivity (%),Methanol selectivity (%),STY_CH3OH (g/kg·h) (LN scale),CO2 conversion efficiency (%),Unnamed: 17,Unnamed: 18,Unnamed: 19,DOI,Name,Year
2.0,Null,,Null,,3.10459,Co-precipitation,350.0,4.0,200.0,30.0,3.0,10.0858,39.9504,60.0496,4.68006,2.12687,,,,10.1016/j.apcatb.2022.122233,Boosting CO2 hydrogenation to methanol by adding trace amount of Au into Cu/ZnO catalysts,2023
2.0,Null,,Null,,3.10459,Co-precipitation,350.0,4.0,225.0,30.0,3.0,10.0858,46.8983,53.1017,5.07731,3.50746,,,,10.1016/j.apcatb.2022.122233,,2023
2.0,Null,,Null,,3.10459,Co-precipitation,350.0,4.0,250.0,30.0,3.0,10.0858,65.2605,34.7395,5.18869,6.00746,,,,10.1016/j.apcatb.2022.122233,,2023
2.0,Null,,Null,,3.10459,Co-precipitation,350.0,4.0,275.0,30.0,3.0,10.0858,78.1638,21.8362,5.28475,10.0224,,,,10.1016/j.apcatb.2022.122233,,2023
2.0,Au,0.001,Null,,3.46261,Co-precipitation,350.0,4.0,200.0,30.0,3.0,10.0858,23.0769,76.9231,5.0408,2.31343,,,,10.1016/j.apcatb.2022.122233,,2023
2.0,Au,0.001,Null,,3.46261,Co-precipitation,350.0,4.0,225.0,30.0,3.0,10.0858,34.4913,65.5087,5.45294,4.1791,,,,10.1016/j.apcatb.2022.122233,,2023
2.0,Au,0.001,Null,,3.46261,Co-precipitation,350.0,4.0,250.0,30.0,3.0,10.0858,48.3871,51.6129,5.62393,6.23134,,,,10.1016/j.apcatb.2022.122233,,2023
2.0,Au,0.001,Null,,3.46261,Co-precipitation,350.0,4.0,275.0,30.0,3.0,10.0858,70.2233,29.7767,5.68155,11.6045,,,,10.1016/j.apcatb.2022.122233,,2023
2.0,Au,0.005,Null,,3.46574,Co-precipitation,350.0,4.0,200.0,30.0,3.0,10.0858,18.6104,81.3896,5.19782,2.54325,,,,10.1016/j.apcatb.2022.122233,,2023
2.0,Au,0.005,Null,,3.46574,Co-precipitation,350.0,4.0,225.0,30.0,3.0,10.0858,30.7692,69.2308,5.57532,4.37872,,,,10.1016/j.apcatb.2022.122233,,2023
2.0,Au,0.005,Null,,3.46574,Co-precipitation,350.0,4.0,250.0,30.0,3.0,10.0858,42.1836,57.8164,5.7518,6.30551,,,,10.1016/j.apcatb.2022.122233,,2023
2.0,Au,0.005,Null,,3.46574,Co-precipitation,350.0,4.0,275.0,30.0,3.0,10.0858,69.0722,30.9278,5.80762,9.77035,,,,10.1016/j.apcatb.2022.122233,,2023
2.0,Au,0.02,Null,,3.24259,Co-precipitation,350.0,4.0,200.0,30.0,3.0,10.0858,22.0844,77.9156,4.98621,2.16965,,,,10.1016/j.apcatb.2022.122233,,2023
2.0,Au,0.02,Null,,3.24259,Co-precipitation,350.0,4.0,225.0,30.0,3.0,10.0858,32.2581,67.7419,5.43519,3.91121,,,,10.1016/j.apcatb.2022.122233,,2023
2.0,Au,0.02,Null,,3.24259,Co-precipitation,350.0,4.0,250.0,30.0,3.0,10.0858,43.9206,56.0794,5.67028,5.97653,,,,10.1016/j.apcatb.2022.122233,,2023
2.0,Au,0.02,Null,,3.24259,Co-precipitation,350.0,4.0,275.0,30.0,3.0,10.0858,68.2382,31.7618,5.69268,10.0269,,,,10.1016/j.apcatb.2022.122233,,2023
2.0,Au,0.05,Null,,3.22287,Co-precipitation,350.0,4.0,200.0,30.0,3.0,10.0858,31.7618,68.2382,4.5925,1.65518,,,,10.1016/j.apcatb.2022.122233,,2023
2.0,Au,0.05,Null,,3.22287,Co-precipitation,350.0,4.0,225.0,30.0,3.0,10.0858,41.4392,58.5608,5.23787,3.72311,,,,10.1016/j.apcatb.2022.122233,,2023
2.0,Au,0.05,Null,,3.22287,Co-precipitation,350.0,4.0,250.0,30.0,3.0,10.0858,50.3722,49.6278,5.5275,5.83591,,,,10.1016/j.apcatb.2022.122233,,2023
2.0,Au,0.05,Null,,3.22287,Co-precipitation,350.0,4.0,275.0,30.0,3.0,10.0858,71.7122,28.2878,5.62393,9.41265,,,,10.1016/j.apcatb.2022.122233,,2023
0.4587,Zr,0.0413,Al,2.2568,4.23411,Co-precipitation,500.0,5.0,250.0,50.0,3.04,8.29405,38.5,61.5,5.39226,25.9,,,,10.1016/j.jcou.2016.01.005,Catalytic performance of spray-dried Cu/ZnO/Al2O3/ZrO2 catalysts for slurry methanol synthesis from CO2 hydrogenation,2016
0.4566,Zr,0.0411,Al,2.8128,4.31749,Co-precipitation,500.0,5.0,250.0,50.0,3.04,8.29405,39.4,60.6,5.35044,25.2,,,,10.1016/j.jcou.2016.01.005,,2016
0.4525,Zr,0.0407,Al,3.3304,4.35671,Co-precipitation,500.0,5.0,250.0,50.0,3.04,8.29405,41.3,58.7,5.29882,24.7,,,,10.1016/j.jcou.2016.01.005,,2016
0.4484,Zr,0.0404,Al,4.016,4.40672,Co-precipitation,500.0,5.0,250.0,50.0,3.04,8.29405,42.3,57.7,5.24069,23.7,,,,10.1016/j.jcou.2016.01.005,,2016
0.4525,Zr,0.0407,Al,4.8868,4.47734,Co-precipitation,500.0,5.0,250.0,50.0,3.04,8.29405,44.8,55.2,5.13167,22.2,,,,10.1016/j.jcou.2016.01.005,,2016
0.4587,Zr,0.0413,Al,2.2568,4.23411,Co-precipitation,500.0,5.0,220.0,30.0,3.04,8.29405,38.9,61.1,3.60005,8.5,,,,10.1016/j.jcou.2016.01.005,,2016
0.4566,Zr,0.0411,Al,2.8128,4.31749,Co-precipitation,500.0,5.0,220.0,30.0,3.04,8.29405,36.5,63.5,3.95891,11.8,,,,10.1016/j.jcou.2016.01.005,,2016
0.4525,Zr,0.0407,Al,3.3304,4.35671,Co-precipitation,500.0,5.0,220.0,30.0,3.04,8.29405,38.3,61.7,4.07073,13.6,,,,10.1016/j.jcou.2016.01.005,,2016
0.4484,Zr,0.0404,Al,4.016,4.40672,Co-precipitation,500.0,5.0,220.0,30.0,3.04,8.29405,41.8,58.2,3.93183,12.5,,,,10.1016/j.jcou.2016.01.005,,2016
0.4525,Zr,0.0407,Al,4.8868,4.47734,Co-precipitation,500.0,5.0,220.0,30.0,3.04,8.29405,46.2,53.8,3.49043,8.6,,,,10.1016/j.jcou.2016.01.005,,2016
0.7319,Zr,0.6616,Null,,5.09375,Co-precipitation,350.0,2.0,200.0,20.0,3.0,9.65503,30.043,65.3151,4.67187,2.90644,,,,10.1016/j.cej.2017.02.010,CO2 hydrogenation to methanol over CuO–ZnO–ZrO2–SiO2 catalysts: Effects of SiO2 contents,2017
0.7319,Zr,0.6616,Null,,5.09375,Co-precipitation,350.0,2.0,220.0,20.0,3.0,9.65503,52.185,47.7808,5.07568,5.97586,,,,10.1016/j.cej.2017.02.010,,2017
0.7319,Zr,0.6616,Null,,5.09375,Co-precipitation,350.0,2.0,240.0,20.0,3.0,9.65503,68.1634,32.0,5.27087,10.8581,,,,10.1016/j.cej.2017.02.010,,2017
0.7319,Zr,0.6616,Null,,5.09375,Co-precipitation,350.0,2.0,260.0,20.0,3.0,9.65503,86.7246,14.4658,4.77139,14.52731,,,,10.1016/j.cej.2017.02.010,,2017
0.7319,Zr,0.6616,Null,,5.09375,Co-precipitation,350.0,2.0,280.0,20.0,3.0,9.65503,91.5842,9.20548,4.59071,19.02298,,,,10.1016/j.cej.2017.02.010,,2017
1.0,Null,,Null,,2.27213,Mechanical grinding,350.0,3.0,250.0,30.0,2.88,7.67786,100.0,0.0,0.0,0.8,,,,10.1007/s11814-017-0278-8,CO2 hydrogenation to methanol over Cu/ZnO catalysts synthesized via a facile solid-phase grinding process using oxalic acid,2018
1.0,(COOH)2,0.25,Null,,2.69463,Mechanical grinding,350.0,3.0,250.0,30.0,2.88,7.67786,100.0,0.0,0.0,1.8,,,,10.1007/s11814-017-0278-8,,2018
1.0,(COOH)2,0.5,Null,,3.16548,Mechanical grinding,350.0,3.0,250.0,30.0,2.88,7.67786,92.6,7.4,1.69611,7.8,,,,10.1007/s11814-017-0278-8,,2018
1.0,(COOH)2,1.0,Null,,3.2581,Mechanical grinding,350.0,3.0,250.0,30.0,2.88,7.67786,19.4,80.6,5.09548,26.1,,,,10.1007/s11814-017-0278-8,,2018
1.0,(COOH)2,1.5,Null,,3.47507,Mechanical grinding,350.0,3.0,250.0,30.0,2.88,7.67786,16.3,83.7,5.15186,26.6,,,,10.1007/s11814-017-0278-8,,2018
1.0,(COOH)2,1.75,Null,,3.64284,Mechanical grinding,350.0,3.0,250.0,30.0,2.88,7.67786,16.4,83.6,5.24341,29.2,,,,10.1007/s11814-017-0278-8,,2018
1.0,(COOH)2,2.0,Null,,3.54674,Mechanical grinding,350.0,3.0,250.0,30.0,2.88,7.67786,18.9,81.1,5.17856,28.2,,,,10.1007/s11814-017-0278-8,,2018
1.0,(COOH)2,2.5,Null,,3.47197,Mechanical grinding,350.0,3.0,250.0,30.0,2.88,7.67786,18.3,81.7,5.2091,28.0,,,,10.1007/s11814-017-0278-8,,2018
1.0,(COOH)2,4.0,Null,,3.39451,Mechanical grinding,350.0,3.0,250.0,30.0,2.88,7.67786,19.3,80.7,5.18614,27.7,,,,10.1007/s11814-017-0278-8,,2018
[...]
11.2393,Null,,Null,,3.3673,Co-precipitation,350.0,4.0,200.0,7.0,9.0,7.78322,42.45,57.55,1.81482,3.07,,,,10.1016/j.cattod.2012.07.029,,2012
11.2393,Null,,Null,,3.3673,Co-precipitation,350.0,4.0,225.0,7.0,9.0,7.78322,71.03,28.97,2.04898,7.59,,,,10.1016/j.cattod.2012.07.029,,2012
11.2393,Null,,Null,,3.3673,Co-precipitation,350.0,4.0,250.0,7.0,9.0,7.78322,89.39,10.61,1.88251,17.01,,,,10.1016/j.cattod.2012.07.029,,2012
2.93199,Null,,Null,,3.3322,Co-precipitation,350.0,4.0,140.0,7.0,9.0,7.78322,0.19,99.81,1.4422,0.71,,,,10.1016/j.cattod.2012.07.029,,2012
2.93199,Null,,Null,,3.3322,Co-precipitation,350.0,4.0,160.0,7.0,9.0,7.78322,19.99,80.01,1.89612,2.2,,,,10.1016/j.cattod.2012.07.029,,2012
2.93199,Null,,Null,,3.3322,Co-precipitation,350.0,4.0,180.0,7.0,9.0,7.78322,48.17,51.83,2.2628,4.94,,,,10.1016/j.cattod.2012.07.029,,2012
2.93199,Null,,Null,,3.3322,Co-precipitation,350.0,4.0,200.0,7.0,9.0,7.78322,73.07,26.93,2.41054,11.15,,,,10.1016/j.cattod.2012.07.029,,2012
2.93199,Null,,Null,,3.3322,Co-precipitation,350.0,4.0,225.0,7.0,9.0,7.78322,85.72,14.28,2.00418,18.17,,,,10.1016/j.cattod.2012.07.029,,2012
2.93199,Null,,Null,,3.3322,Co-precipitation,350.0,4.0,250.0,7.0,9.0,7.78322,91.84,8.16,1.50851,22.61,,,,10.1016/j.cattod.2012.07.029,,2012
2.93199,Null,,Null,,2.89037,Co-precipitation,400.0,4.0,140.0,7.0,9.0,7.78322,0.78,99.22,1.17248,0.71,,,,10.1016/j.cattod.2012.07.029,,2012
2.93199,Null,,Null,,2.89037,Co-precipitation,400.0,4.0,160.0,7.0,9.0,7.78322,12.66,87.34,1.69928,1.68,,,,10.1016/j.cattod.2012.07.029,,2012
2.93199,Null,,Null,,2.89037,Co-precipitation,400.0,4.0,180.0,7.0,9.0,7.78322,33.47,66.53,2.14827,3.62,,,,10.1016/j.cattod.2012.07.029,,2012
2.93199,Null,,Null,,2.89037,Co-precipitation,400.0,4.0,200.0,7.0,9.0,7.78322,60.82,39.18,2.37118,7.95,,,,10.1016/j.cattod.2012.07.029,,2012
2.93199,Null,,Null,,2.89037,Co-precipitation,400.0,4.0,225.0,7.0,9.0,7.78322,85.72,14.28,2.23858,18.17,,,,10.1016/j.cattod.2012.07.029,,2012
2.93199,Null,,Null,,2.89037,Co-precipitation,400.0,4.0,250.0,7.0,9.0,7.78322,94.7,5.3,1.57898,27.33,,,,10.1016/j.cattod.2012.07.029,,2012
2.93199,Null,,Null,,2.63906,Co-precipitation,450.0,4.0,140.0,7.0,9.0,7.78322,0.78,99.22,0.618962,0.35,,,,10.1016/j.cattod.2012.07.029,,2012
2.93199,Null,,Null,,2.63906,Co-precipitation,450.0,4.0,160.0,7.0,9.0,7.78322,28.58,71.42,1.24415,1.84,,,,10.1016/j.cattod.2012.07.029,,2012
2.93199,Null,,Null,,2.63906,Co-precipitation,450.0,4.0,180.0,7.0,9.0,7.78322,51.84,48.16,1.63705,4.13,,,,10.1016/j.cattod.2012.07.029,,2012
2.93199,Null,,Null,,2.63906,Co-precipitation,450.0,4.0,200.0,7.0,9.0,7.78322,78.37,21.63,2.02419,11.23,,,,10.1016/j.cattod.2012.07.029,,2012
2.93199,Null,,Null,,2.63906,Co-precipitation,450.0,4.0,225.0,7.0,9.0,7.78322,93.47,6.53,2.15871,21.9,,,,10.1016/j.cattod.2012.07.029,,2012
2.93199,Null,,Null,,2.63906,Co-precipitation,450.0,4.0,250.0,7.0,9.0,7.78322,95.92,4.08,1.59939,27.33,,,,10.1016/j.cattod.2012.07.029,,2012
2.93199,Null,,Null,,2.30259,Co-precipitation,500.0,4.0,140.0,7.0,9.0,7.78322,0.96,99.04,0.845868,0.8,,,,10.1016/j.cattod.2012.07.029,,2012
2.93199,Null,,Null,,2.30259,Co-precipitation,500.0,4.0,160.0,7.0,9.0,7.78322,10.25,89.75,1.32442,1.59,,,,10.1016/j.cattod.2012.07.029,,2012
2.93199,Null,,Null,,2.30259,Co-precipitation,500.0,4.0,180.0,7.0,9.0,7.78322,25.72,74.28,1.74222,2.91,,,,10.1016/j.cattod.2012.07.029,,2012
2.93199,Null,,Null,,2.30259,Co-precipitation,500.0,4.0,200.0,7.0,9.0,7.78322,53.47,46.53,2.04898,6.01,,,,10.1016/j.cattod.2012.07.029,,2012
2.93199,Null,,Null,,2.30259,Co-precipitation,500.0,4.0,225.0,7.0,9.0,7.78322,77.15,22.85,2.29253,11.77,,,,10.1016/j.cattod.2012.07.029,,2012