Folder: AI_4_CATALYSIS/data/data_modification (part 2)

File: Test_0611_conflict_rows.csv
Molar ratio (Zn:Cu),Promoter 1,Promoter 1 ratio (Promoter 1:Cu),Promoter 2,Promoter 2 ratio (Promoter 2:Cu),Catalyst surface area (m2/g) (LN scale),Type of sysnthesis procedure,Calcination temperature (°C),Calcination time (h),Temperature (°C),Pressure (bar),H2/CO2 ratio (-),GHSV (mL/g.h) (LN scale),CO selectivity (%),Methanol selectivity (%),STY_CH3OH (g/kg·h) (LN scale),CO2 conversion efficiency (%),Unnamed: 17,Unnamed: 18,Unnamed: 19,DOI,Name,Year
0.7,Si,0.0001764,Zr,0.6545,5.16479,Co-precipitation,350.0,2.0,200.0,20.0,3.0,9.65503,25.2556,69.9178,5.00062,3.78665,,,,10.1016/j.cej.2017.02.010,,2017
0.7,Si,0.0001764,Zr,0.6545,5.16479,Co-precipitation,350.0,2.0,220.0,20.0,3.0,9.65503,48.7349,50.411,5.2735,6.91083,,,,10.1016/j.cej.2017.02.010,,2017
0.7,Si,0.0001764,Zr,0.6545,5.16479,Co-precipitation,350.0,2.0,240.0,20.0,3.0,9.65503,65.2275,34.411,5.42537,11.79304,,,,10.1016/j.cej.2017.02.010,,2017
0.7,Si,0.0001764,Zr,0.6545,5.16479,Co-precipitation,350.0,2.0,260.0,20.0,3.0,9.65503,80.587,19.2877,5.18728,16.56247,,,,10.1016/j.cej.2017.02.010,,2017
0.7,Si,0.0001764,Zr,0.6545,5.16479,Co-precipitation,350.0,2.0,280.0,20.0,3.0,9.65503,91.5616,9.20548,4.61891,19.57262,,,,10.1016/j.cej.2017.02.010,,2017
0.7384,Si,0.0004577,Zr,0.6528,5.36598,Co-precipitation,350.0,2.0,200.0,20.0,3.0,9.65503,29.5098,70.5753,5.11925,4.22707,,,,10.1016/j.cej.2017.02.010,,2017
0.7384,Si,0.0004577,Zr,0.6528,5.36598,Co-precipitation,350.0,2.0,220.0,20.0,3.0,9.65503,45.3621,54.5753,5.60341,8.89127,,,,10.1016/j.cej.2017.02.010,,2017
0.7384,Si,0.0004577,Zr,0.6528,5.36598,Co-precipitation,350.0,2.0,240.0,20.0,3.0,9.65503,62.8459,37.0411,5.65728,13.82783,,,,10.1016/j.cej.2017.02.010,,2017
0.7384,Si,0.0004577,Zr,0.6528,5.36598,Co-precipitation,350.0,2.0,260.0,20.0,3.0,9.65503,76.2618,23.4521,5.4612,17.93799,,,,10.1016/j.cej.2017.02.010,,2017
0.7384,Si,0.0004577,Zr,0.6528,5.36598,Co-precipitation,350.0,2.0,280.0,20.0,3.0,9.65503,90.122,10.5205,4.7623,19.793,,,,10.1016/j.cej.2017.02.010,,2017
0.6948,Si,0.00065172,Zr,0.6782,5.23111,Co-precipitation,350.0,2.0,200.0,20.0,3.0,9.65503,36.6317,67.0685,4.82029,3.291741,,,,10.1016/j.cej.2017.02.010,,2017
0.6948,Si,0.00065172,Zr,0.6782,5.23111,Co-precipitation,350.0,2.0,220.0,20.0,3.0,9.65503,48.5655,50.6301,5.39713,7.79109,,,,10.1016/j.cej.2017.02.010,,2017
0.6948,Si,0.00065172,Zr,0.6782,5.23111,Co-precipitation,350.0,2.0,240.0,20.0,3.0,9.65503,68.2497,33.3151,5.46472,12.67207,,,,10.1016/j.cej.2017.02.010,,2017
0.6948,Si,0.00065172,Zr,0.6782,5.23111,Co-precipitation,350.0,2.0,260.0,20.0,3.0,9.65503,79.0783,20.8219,5.33355,17.77233,,,,10.1016/j.cej.2017.02.010,,2017
0.6948,Si,0.00065172,Zr,0.6782,5.23111,Co-precipitation,350.0,2.0,280.0,20.0,3.0,9.65503,89.7078,11.3973,4.88483,20.67233,,,,10.1016/j.cej.2017.02.010,,2017
0.681,Si,0.001128,Zr,0.6473,4.97673,Co-precipitation,350.0,2.0,200.0,20.0,3.0,9.65503,38.6289,65.5342,4.67389,2.90627,,,,10.1016/j.cej.2017.02.010,,2017
0.681,Si,0.001128,Zr,0.6473,4.97673,Co-precipitation,350.0,2.0,220.0,20.0,3.0,9.65503,58.3892,46.6849,5.08849,6.19543,,,,10.1016/j.cej.2017.02.010,,2017
0.681,Si,0.001128,Zr,0.6473,4.97673,Co-precipitation,350.0,2.0,240.0,20.0,3.0,9.65503,72.8498,30.2466,5.24449,11.18697,,,,10.1016/j.cej.2017.02.010,,2017
0.681,Si,0.001128,Zr,0.6473,4.97673,Co-precipitation,350.0,2.0,260.0,20.0,3.0,9.65503,82.8152,20.1644,5.27029,17.22143,,,,10.1016/j.cej.2017.02.010,,2017
0.681,Si,0.001128,Zr,0.6473,4.97673,Co-precipitation,350.0,2.0,280.0,20.0,3.0,9.65503,91.4535,10.3014,4.7632,20.23226,,,,10.1016/j.cej.2017.02.010,,2017
0.7069,Si,0.0021187,Zr,0.6416,4.80402,Co-precipitation,350.0,2.0,200.0,20.0,3.0,9.65503,41.7498,63.3425,4.36086,2.191054,,,,10.1016/j.cej.2017.02.010,,2017
0.7069,Si,0.0021187,Zr,0.6416,4.80402,Co-precipitation,350.0,2.0,220.0,20.0,3.0,9.65503,65.5524,45.3699,4.81101,4.8207,,,,10.1016/j.cej.2017.02.010,,2017
0.7069,Si,0.0021187,Zr,0.6416,4.80402,Co-precipitation,350.0,2.0,240.0,20.0,3.0,9.65503,70.1136,28.9315,4.94566,8.65836,,,,10.1016/j.cej.2017.02.010,,2017
0.7069,Si,0.0021187,Zr,0.6416,4.80402,Co-precipitation,350.0,2.0,260.0,20.0,3.0,9.65503,88.6061,12.274,4.55075,13.70263,,,,10.1016/j.cej.2017.02.010,,2017
0.7069,Si,0.0021187,Zr,0.6416,4.80402,Co-precipitation,350.0,2.0,280.0,20.0,3.0,9.65503,92.8371,7.0137,4.28712,18.36316,,,,10.1016/j.cej.2017.02.010,,2017
0.9124,Zr,0.7919,SiO2/S,20.0,2.92852,Impregnation,300.0,1.0,250.0,30.0,3.0,10.6919,69.4,30.6,5.93251,19.2,,,,10.1016/j.apcatb.2019.117941,,2019
0.4731,Zr,0.6381,SiO2/S,20.0,2.92852,Impregnation,300.0,1.0,250.0,30.0,3.0,10.6919,73.63,26.37,5.78475,19.1,,,,10.1016/j.apcatb.2019.117941,,2019
0.4871,Zr,0.6699,SiO2/S,20.0,2.92852,Impregnation,300.0,1.0,250.0,30.0,3.0,10.6919,75.65,24.35,5.52625,16.0,,,,10.1016/j.apcatb.2019.117941,,2019
0.599,Zr,0.26,LDH,2.068,4.23411,Co-precipitation,400.0,4.0,150.0,30.0,3.0,8.29405,0.2882,99.7118,3.64565,2.59366,,,,10.1016/j.ijhydene.2019.06.176,Moderate-pressure conversion of H2 and CO2 to methanol via adsorption enhanced hydrogenation,2019
0.599,Zr,0.26,LDH,2.068,3.24259,Co-precipitation,400.0,4.0,200.0,30.0,3.0,8.29405,2.1873,97.8127,3.84838,3.35735,,,,10.1016/j.ijhydene.2019.06.176,,2019
0.599,Zr,0.26,LDH,2.068,3.36038,Co-precipitation,400.0,4.0,249.695,30.0,3.0,8.29405,17.7147,82.2853,4.18291,5.36023,,,,10.1016/j.ijhydene.2019.06.176,,2019
0.599,Zr,0.26,LDH,2.068,3.24259,Co-precipitation,400.0,4.0,300.0,30.0,3.0,8.29405,40.3631,59.6369,3.87452,5.66282,,,,10.1016/j.ijhydene.2019.06.176,,2019
0.599,Zr,0.26,LDH,2.068,3.36038,Co-precipitation,400.0,4.0,300.0,30.0,3.0,7.17012,34.5143,65.4857,2.94444,5.77644,,,,10.1016/j.ijhydene.2019.06.176,,2019
0.599,Zr,0.26,LDH,2.068,3.68888,Co-precipitation,400.0,4.0,300.0,30.0,3.0,7.86327,18.898,81.102,3.79549,5.5458,,,,10.1016/j.ijhydene.2019.06.176,,2019
0.599,Zr,0.26,LDH,2.068,3.7612,Co-precipitation,400.0,4.0,300.0,30.0,3.0,8.29405,17.3241,82.6759,4.18586,5.38826,,,,10.1016/j.ijhydene.2019.06.176,,2019
0.599,Zr,0.26,LDH,2.068,3.82864,Co-precipitation,400.0,4.0,300.0,30.0,3.0,8.57546,14.9177,82.0823,4.42485,5.04067,,,,10.1016/j.ijhydene.2019.06.176,,2019
0.599,Zr,0.26,LDH,2.068,2.99573,Co-precipitation,400.0,4.0,300.0,30.0,3.0,8.79482,14.4867,85.5133,4.52721,4.45901,,,,10.1016/j.ijhydene.2019.06.176,,2019
0.599,Zr,0.26,LDH,2.068,2.99573,Co-precipitation,400.0,4.0,250.0,5.0,3.0,8.29405,28.4375,71.5625,3.7512,4.06135,,,,10.1016/j.ijhydene.2019.06.176,,2019
0.599,Zr,0.26,LDH,2.068,3.82864,Co-precipitation,400.0,4.0,250.0,10.0,3.0,8.29405,26.25,73.75,3.81827,4.22086,,,,10.1016/j.ijhydene.2019.06.176,,2019
0.599,Zr,0.26,LDH,2.068,3.82864,Co-precipitation,400.0,4.0,250.0,15.0,3.0,8.29405,25.3125,74.6875,3.83347,4.23313,,,,10.1016/j.ijhydene.2019.06.176,,2019
0.599,Zr,0.26,LDH,2.068,3.82864,Co-precipitation,400.0,4.0,250.0,20.0,3.0,8.29405,22.3437,77.6563,3.93219,4.50307,,,,10.1016/j.ijhydene.2019.06.176,,2019
0.599,Zr,0.26,LDH,2.068,3.82864,Co-precipitation,400.0,4.0,250.0,25.0,3.0,8.29405,20.7812,79.2188,3.97287,4.60123,,,,10.1016/j.ijhydene.2019.06.176,,2019
0.488756,Zr,0.484195,Si,0.25,3.72569,Surfactant-templated,400.0,4.0,250.0,30.0,3.0,10.0858,51.8,48.0,5.91822,9.0,,,,10.1016/j.jcat.2024.115785,On the secondary promotion effect of Al and Ga on Cu/ZnO methanol synthesis catalysts,2024
[...]
0.2,La,2.0,Mn,0.8,3.20275,Sol-gel,700.0,4.0,270.0,50.0,3.0,8.18869,47.93,50.43,3.93183,9.09,,,,10.1016/j.ijhydene.2017.06.200,,2017
0.0,La,1.67,Mn,0.67,3.20275,Sol-gel,700.0,4.0,270.0,50.0,3.0,8.18869,72.67,24.21,3.04452,6.84,,,,10.1016/j.ijhydene.2017.06.200,,2017
0.5,Zr,0.45,Mg,0.05,5.24544,Impregnation,600.0,6.0,250.0,20.0,3.0,7.60887,61.61,35.98,3.46574,12.12,,,,10.1016/j.jiec.2015.03.001,,2015
0.5,Zr,0.475,Mg,0.25,,Impregnation,600.0,6.0,250.0,20.0,3.0,7.60887,64.80874,28.19499,3.1603,11.3307,,,,10.1016/j.jiec.2015.03.001,,2015
0.5,Zr,0.4,Mg,0.1,,Impregnation,600.0,6.0,250.0,20.0,3.0,7.60887,67.10382,33.14888,3.34352,11.5942,,,,10.1016/j.jiec.2015.03.001,,2015
0.5,Zr,0.35,Mg,0.15,,Impregnation,600.0,6.0,250.0,20.0,3.0,7.60887,67.86885,32.30567,3.3026,11.278,,,,10.1016/j.jiec.2015.03.001,,2015
0.5,Zr,0.3,Mg,0.2,,Impregnation,600.0,6.0,250.0,20.0,3.0,7.60887,75.84699,24.13702,2.99134,10.96179,,,,10.1016/j.jiec.2015.03.001,,2015
0.5,Zr,0.45,Mg,0.05,5.24544,Impregnation,600.0,6.0,250.0,20.0,3.0,7.96555,61.76471,35.46512,3.89379,12.09302,,,,10.1016/j.jiec.2015.03.001,,2015
0.5,Zr,0.45,Mg,0.05,5.24544,Impregnation,600.0,6.0,250.0,20.0,3.0,8.37101,63.70242,34.94186,4.02939,10.46512,,,,10.1016/j.jiec.2015.03.001,,2015
0.5,Zr,0.45,Mg,0.05,5.24544,Impregnation,600.0,6.0,250.0,20.0,3.0,8.65869,63.07958,34.76744,4.1658,8.54651,,,,10.1016/j.jiec.2015.03.001,,2015
0.5,Zr,0.45,Mg,0.05,5.24544,Impregnation,600.0,6.0,250.0,20.0,3.0,8.88184,64.87889,34.12791,4.38395,9.01163,,,,10.1016/j.jiec.2015.03.001,,2015
0.5,Zr,0.45,Mg,0.05,5.24544,Impregnation,600.0,6.0,230.0,20.0,3.0,8.37101,66.5371,32.0121,3.3673,5.80938,,,,10.1016/j.jiec.2015.03.001,,2015
0.5,Zr,0.45,Mg,0.05,5.24544,Impregnation,600.0,6.0,250.0,20.0,3.0,8.37101,59.04593,38.00303,4.20789,11.43722,,,,10.1016/j.jiec.2015.03.001,,2015
0.5,Zr,0.45,Mg,0.05,5.24544,Impregnation,600.0,6.0,270.0,20.0,3.0,8.37101,61.30742,35.40091,4.39973,14.94705,,,,10.1016/j.jiec.2015.03.001,,2015
0.5,Zr,0.45,Mg,0.05,5.24544,Impregnation,600.0,6.0,290.0,20.0,3.0,8.37101,69.5053,20.81695,3.90197,15.49168,,,,10.1016/j.jiec.2015.03.001,,2015
0.5,Zr,0.45,Mg,0.05,5.24544,Impregnation,600.0,6.0,310.0,20.0,3.0,8.37101,74.87632,12.40545,3.47241,16.58094,,,,10.1016/j.jiec.2015.03.001,,2015
0.167,Mn,0.5,La,1.667,0.09531018,Sol-gel,500.0,4.0,270.0,50.0,3.0,8.24276,44.2,54.2,4.26268,10.1,,,,10.1007/s10562-015-1513-8,Performance of the La-Mn-Zn-Cu-O Based Perovskite Precursors for Methanol Synthesis from CO2 Hydrogenation,2015
0.333,Mn,0.333,La,1.667,0.336472,Sol-gel,500.0,4.0,270.0,50.0,3.0,8.24276,43.3,55.3,4.39445,10.7,,,,10.1007/s10562-015-1513-8,,2015
0.5,Mn,0.167,La,1.667,0.182322,Sol-gel,500.0,4.0,270.0,50.0,3.0,8.24276,44.5,54.5,4.61512,13.1,,,,10.1007/s10562-015-1513-8,,2015
0.496815,La,1.44268,Ce,0.245223,0.262364,Sol-gel,400.0,2.0,250.0,50.0,3.0,8.18869,36.7,63.3,4.39445,8.1,,,,10.1016/j.jpowsour.2013.11.037,,2014
0.29563,La,0.966581,Mg,0.308483,0.182322,Sol-gel,400.0,2.0,250.0,50.0,3.0,8.18869,34.8,65.2,4.51086,9.1,,,,10.1016/j.jpowsour.2013.11.037,,2014
0.566406,La,1.97266,Zr,0.3671875,0.832909,Sol-gel,400.0,2.0,250.0,50.0,3.0,8.18869,47.5,52.5,4.61512,12.6,,,,10.1016/j.jpowsour.2013.11.037,,2014
0.261614,La,0.95599,Y,0.227384,-0.356675,Sol-gel,400.0,2.0,250.0,50.0,3.0,8.18869,40.4,59.6,3.71357,5.0,,,,10.1016/j.jpowsour.2013.11.037,,2014
0.6,Zr,0.3,La,0.1,4.28359,Co-precipitation,400.0,5.0,230.0,30.0,3.0,7.71423,50.2,49.8,4.47173,20.5,,,,10.1016/j.catcom.2014.05.014,,2014
0.6,Zr,0.3,Ce,0.1,4.11415,Co-precipitation,400.0,5.0,230.0,30.0,3.0,7.71423,47.0,53.0,4.63984,22.8,,,,10.1016/j.catcom.2014.05.014,,2014